time_tick,gyr_X_value,gyr_Y_value,gyr_Z_value
-0.007190,0.017884,0.058672,0.004296
0.022826,0.016827,0.079002,-0.000647
0.052849,0.015771,0.067238,0.001262
0.082860,0.013827,0.035390,-0.008901
0.132886,0.020339,-0.037136,-0.005980
0.172887,0.018237,-0.046741,-0.006160
0.202903,0.018068,-0.014887,0.002936
0.232925,0.015967,0.024723,-0.008032
0.262940,0.013822,0.041802,-0.009845
0.292943,0.010630,0.034292,-0.007861
0.322942,0.016958,0.012858,0.001321
0.352951,0.019228,0.004515,-0.010529
0.392991,0.018221,0.004590,-0.015846
0.423002,0.020359,-0.009291,-0.013973
0.453013,0.022512,-0.029568,-0.012218
0.503032,0.020341,-0.015735,-0.010902
0.533043,0.022453,-0.010395,-0.010800
0.563056,0.021377,-0.009350,-0.009719
0.593067,0.020284,-0.001908,-0.008519
0.623078,0.020214,0.017249,-0.006038
0.663064,0.018148,0.020533,-0.012361
0.693104,0.014880,0.025752,-0.005887
0.723117,0.018196,0.005624,-0.013700
0.753128,0.023399,-0.004137,-0.001113
0.803147,0.021268,0.016172,-0.004993
0.833157,0.021240,0.036459,-0.006745
0.863149,0.020123,0.049215,-0.004384
0.893160,0.021251,0.036475,-0.007808
0.923162,0.022413,0.005596,-0.010505
0.953191,0.023676,-0.051886,-0.016883
0.983190,0.023685,-0.087178,-0.010092
1.023232,0.016149,-0.065956,-0.005454
1.053241,0.017077,-0.047956,0.003387
1.083235,0.015931,0.003274,0.000079
1.133245,0.014707,0.072579,0.000296
1.163275,0.015867,0.069514,-0.008267
1.193273,0.018035,0.034280,-0.004662
1.223308,0.021326,-0.011562,-0.004443
1.253318,0.023560,-0.032793,-0.010150
1.293335,0.022447,-0.016823,-0.008792
1.333351,0.022471,-0.003950,-0.013872
1.373364,0.022412,-0.007244,-0.007552
1.403377,0.022472,-0.017857,-0.010938
1.433389,0.020344,-0.016801,-0.010921
1.463399,0.015943,-0.010617,0.001949
1.493412,0.017948,0.028806,0.004807
1.523422,0.016947,0.053496,-0.006435
1.563439,0.020151,0.047115,-0.006550
1.593450,0.010852,0.021771,-0.026171
1.633464,0.018187,-0.026486,-0.005786
1.653473,0.022475,-0.037110,-0.007041
1.703491,0.025745,-0.047676,-0.012549
1.733493,0.021533,-0.054060,-0.014799
1.763494,0.021553,-0.071149,-0.012988
1.803530,0.021531,-0.075461,-0.009878
1.823514,0.022582,-0.075472,-0.008813
1.853543,0.019324,-0.052050,-0.007320
1.883559,0.023506,-0.024312,-0.006803
1.923576,0.024448,0.019385,-0.004930
1.953587,0.024349,0.054550,-0.003217
2.003599,0.021052,0.080056,0.001505
2.033605,0.020118,0.055627,-0.005329
2.063604,0.020123,0.049215,-0.004384
2.093640,0.022291,0.036448,-0.005681
2.123638,0.020246,0.008736,-0.007259
2.153648,0.022474,-0.023203,-0.009974
2.183660,0.023524,-0.036055,-0.005956
2.233680,0.022504,-0.030650,-0.011175
2.273695,0.021367,-0.018992,-0.006707
2.303705,0.021266,0.003331,-0.002041
2.333696,0.019163,0.021540,-0.008087
2.363699,0.023475,0.019508,-0.013437
2.393729,0.023503,0.003501,-0.012669
2.423728,0.024612,-0.028524,-0.010070
2.463768,0.028925,-0.048743,-0.011502
2.493780,0.028947,-0.044430,-0.014612
2.543797,0.023576,-0.039189,-0.010268
2.553802,0.026783,-0.042356,-0.011386
2.603820,0.021345,-0.014744,-0.005565
2.633833,0.018043,0.008615,0.000180
2.663843,0.018020,0.026770,-0.001611
2.693855,0.017941,0.044845,0.001913
2.723865,0.018016,0.041742,-0.004524
2.763881,0.019121,0.024690,-0.004838
2.793878,0.022311,0.015079,-0.002886
2.823877,0.022432,0.002414,-0.011627
2.873923,0.022483,-0.013561,-0.012986
2.893933,0.022486,-0.018907,-0.012021
2.933946,0.023623,-0.044472,-0.013556
2.953956,0.021442,-0.044562,-0.008243
2.993968,0.020324,-0.017899,-0.008815
3.023976,0.021371,-0.007217,-0.009680
3.063997,0.020261,0.016247,-0.010310
3.094008,0.021285,0.018336,-0.007080
3.124020,0.020247,0.017297,-0.009228
3.174032,0.020210,0.009755,-0.004050
3.184043,0.020200,0.014019,-0.003971
3.234061,0.019215,0.009845,-0.010430
3.264073,0.022346,0.005500,-0.004126
3.294084,0.022394,0.008779,-0.009383
3.324096,0.022360,0.026918,-0.010111
3.354108,0.022384,0.017323,-0.010288
3.394094,0.022425,-0.008294,-0.008635
3.414130,0.022480,-0.016775,-0.011982
3.474153,0.019238,-0.026497,-0.004721
3.504164,0.021423,-0.018912,-0.012023
3.524171,0.019235,-0.002963,-0.009603
3.564183,0.019157,0.015112,-0.006079
3.594174,0.020261,0.016247,-0.010310
3.634216,0.021275,0.026881,-0.007986
3.664226,0.021247,0.024701,-0.004836
3.694239,0.021316,0.019450,-0.010250
3.724249,0.020279,0.004504,-0.009464
3.774269,0.020353,-0.033906,-0.008047
3.804279,0.020353,-0.029626,-0.009032
3.834275,0.019335,-0.033847,-0.012301
3.864280,0.021411,-0.027489,-0.008991
3.894293,0.021386,-0.026455,-0.006845
3.924307,0.020225,0.012985,-0.006117
3.954336,0.020131,0.050297,-0.005427
3.994350,0.020096,0.059876,-0.004187
4.024363,0.021194,0.050302,-0.005426
4.074382,0.021348,0.006657,-0.010486
4.104394,0.021484,-0.043432,-0.012476
4.124403,0.021506,-0.070147,-0.008716
4.164416,0.023690,-0.071123,-0.014049
4.194429,0.023571,-0.037057,-0.010229
4.224440,0.022411,0.006662,-0.010485
4.264456,0.021245,0.030047,-0.005800
4.294458,0.021218,0.040707,-0.005603
4.334463,0.020179,0.031108,-0.005782
4.374473,0.019229,0.008795,-0.011513
4.394499,0.022429,-0.005080,-0.009639
4.434500,0.021383,-0.025388,-0.006825
4.454527,0.021395,-0.021092,-0.008873
4.494528,0.019133,0.006519,-0.001984
4.524555,0.016994,0.025746,-0.004821
4.554562,0.016938,0.048134,-0.004408
4.594582,0.014827,0.033167,-0.002560
4.634599,0.016998,0.019334,-0.003876
4.664610,0.019186,0.003385,-0.006296
4.694622,0.021380,-0.006135,-0.010723
4.734634,0.018126,0.002314,-0.006317
4.754644,0.019219,-0.000847,-0.008501
4.794658,0.022452,-0.000768,-0.012749
4.834650,0.023532,-0.012506,-0.011902
4.864679,0.023542,-0.021050,-0.010996
4.894678,0.023474,-0.007239,-0.007551
4.934713,0.020215,0.025809,-0.008007
4.964724,0.021320,0.031225,-0.013223
4.994736,0.022465,-0.001818,-0.013832
5.024748,0.023585,-0.038107,-0.011312
5.074766,0.025788,-0.037985,-0.018751
5.094772,0.026841,-0.025155,-0.020639
5.124782,0.027920,-0.031547,-0.020756
5.164799,0.023492,-0.023262,-0.005720
5.194811,0.022335,0.009765,-0.004047
5.234827,0.018033,0.043906,-0.006611
5.264834,0.018057,0.030032,-0.005804
5.294822,0.018008,0.022473,0.000436
5.324862,0.018019,0.018209,0.000358
5.354856,0.019152,0.025804,-0.008008
5.394887,0.023413,0.017280,-0.007097
5.424886,0.027734,0.002423,-0.010557
5.464899,0.055482,0.048731,-0.032001
5.484922,0.097659,0.027069,0.003805
5.544945,0.080067,-0.085748,-0.016380
5.574941,0.047352,-0.117679,-0.030834
5.604967,0.025465,-0.118244,-0.071280
5.634979,0.029318,-0.213567,-0.113449
5.664990,0.000386,-0.202281,-0.093069
5.695002,0.021488,-0.059917,0.091437
5.725014,-0.168359,0.151967,-0.089906
5.765029,-0.211903,0.330016,-0.030302
5.785034,-0.191886,0.313818,-0.010373
5.825053,-0.135513,0.330840,0.081463
5.875052,-0.245606,0.178361,-0.025701
5.895080,-0.184482,0.147974,0.029107
5.925078,-0.125937,0.120583,0.025478
5.965078,-0.132736,0.085084,-0.027294
5.995116,-0.139090,0.101760,0.067653
6.035132,-0.111086,0.094940,0.033529
6.065143,-0.127760,0.097024,0.102672
6.095155,-0.214590,0.087414,0.075807
6.135172,-0.246701,0.056346,0.003945
6.185176,-0.251216,-0.002453,-0.058827
6.205197,-0.104343,-0.008725,0.122013
6.235208,-0.044765,-0.056925,0.226472
6.265220,-0.149056,-0.161162,-0.038247
6.305231,-0.227223,-0.019649,-0.113353
6.335231,-0.277833,0.076517,-0.071223
6.365259,-0.111321,0.073650,-0.040242
6.395252,-0.271247,0.012029,-0.177689
6.435284,-0.385302,0.022304,-0.045765
6.465297,-0.403073,-0.139984,-0.038151
6.505301,-0.526266,-0.213223,-0.029015
6.535299,-0.636286,-0.136018,-0.092585
6.565328,-0.678394,-0.063791,0.055456
6.595327,-0.839184,-0.072082,-0.011881
6.625350,-0.775462,-0.074593,-0.108627
6.655356,-1.140391,0.030006,-0.089040
6.695385,-1.440498,0.135360,-0.170390
6.745403,-2.179174,0.281569,0.013301
6.775415,-2.213106,-0.445115,-0.036331
6.805425,-1.998844,-0.196431,-0.053816
6.835438,-1.857593,-0.331739,-0.016805
6.865448,-1.811703,-0.379383,-0.025077
6.905451,-1.972933,0.163122,-0.271524
6.925472,-1.502841,0.298809,-0.138728
6.965488,-1.103061,0.058565,0.294371
6.995498,-0.993877,-0.080742,-0.052633
7.035511,-0.706139,-0.078624,-0.030989
7.065514,-0.663230,0.000883,0.014132
7.095512,-0.891790,-0.174293,-0.039355
7.125545,-0.969671,-0.114309,-0.224439
7.165540,-0.575904,-0.128507,-0.076424
7.195542,-0.436673,-0.204205,0.038253
7.245561,0.023258,-0.030198,-0.183443
7.255563,0.052279,-0.066592,-0.307442
7.295602,0.202532,0.028620,-0.066232
7.335618,0.493146,-0.055283,0.003806
7.365630,0.886230,-0.146418,0.233346
7.395643,1.029826,0.076378,0.070672
7.425653,0.642728,-0.083989,-0.167765
7.465667,0.660725,-0.155681,-0.145673
7.495678,1.484073,-0.340556,0.214502
7.535688,1.301231,-0.150026,0.179527
7.565686,1.526405,-0.189304,0.097178
7.595717,1.813201,0.118259,0.443501
7.635733,1.789365,0.522161,0.096814
7.665745,1.345587,0.371707,-0.109602
7.695756,1.661607,-0.009450,0.235719
7.735770,1.807854,0.006108,0.169180
7.765780,1.431643,-0.037036,0.081805
7.795785,1.287195,0.085589,0.249801
7.835809,0.932760,0.250848,0.067404
7.865820,0.670224,0.269821,0.069576
7.895830,0.597774,0.237731,0.195448
7.945825,0.354980,0.189018,-0.047137
7.975839,0.603516,0.094380,0.085397
8.005873,0.575751,0.006767,0.016748
8.035885,0.589872,0.062460,0.076283
8.065896,0.500383,0.106015,-0.012345
8.095908,0.423529,0.195024,0.000909
8.125919,0.512247,0.140999,-0.137171
8.165934,0.702050,0.078208,-0.084938
8.195938,0.852084,-0.057726,-0.074516
8.235963,0.673039,0.061122,0.049769
8.265975,0.766048,-0.043734,-0.181765
8.305988,0.806409,-0.032058,0.119452
8.325998,0.757009,0.032228,0.154614
8.366011,0.578190,0.168775,-0.048315
8.396023,0.460617,0.375862,-0.028671
8.426033,0.888301,0.447475,0.310263
8.466028,0.893151,0.262897,-0.108950
8.496063,1.104225,0.147811,-0.047026
8.546058,1.925008,-0.644242,-0.016049
8.566074,2.004323,-0.644406,0.020197
8.596082,1.983153,-0.569499,-0.003965
8.626113,1.947430,-0.387657,0.018497
8.656124,1.334713,-0.111834,-0.081334
8.696137,1.191439,0.098057,-0.043590
8.736154,1.779729,-0.506314,0.126706
8.766144,1.722306,-0.798279,0.093591
8.786172,1.738976,-0.837630,0.234321
8.846195,1.500731,-0.287029,0.134689
8.876207,1.431364,-0.298482,0.165236
8.906209,1.152912,-0.189683,0.145655
8.926228,1.098884,0.048430,0.178707
8.966241,1.155229,0.289458,0.123676
8.996252,0.923313,0.109746,0.087117
9.026263,0.907237,0.133012,0.094972
9.066280,0.671197,0.087193,0.017282
9.096277,0.646309,0.013243,0.176466
9.136291,0.481873,-0.020953,0.057600
9.166326,0.018323,0.052436,0.064797
9.196306,-0.225735,0.184422,0.003147
9.226314,-0.430196,0.204660,-0.060524
9.256334,-0.732669,0.402924,0.061895
9.296368,-1.872666,0.538966,0.013100
9.336384,-2.518412,0.797830,-0.175349
9.366395,-2.525626,0.604728,-0.456486
9.406401,-3.109578,0.288899,-0.132275
9.436423,-1.948108,0.035956,0.323808
9.466435,-1.595120,-0.535704,0.228575
9.496446,-2.071466,-0.237768,0.190991
9.536460,-1.798948,-0.428897,-0.417324
9.566448,-1.435312,0.008073,0.070791
9.596483,-1.279725,-0.147819,0.062773
9.636498,-1.165624,0.215540,0.046228
9.656506,-1.354405,0.000999,-0.142997
9.696523,-1.457857,0.115068,-0.031474
9.716528,-1.532391,0.058863,-0.004951
9.766525,-1.720059,-0.057799,-0.321042
9.806558,-2.208988,0.085554,0.061751
9.836557,-2.204546,-0.287536,0.125046
9.866586,-1.953874,-0.339981,0.146700
9.896586,-2.378655,-0.030929,-0.046944
9.936614,-2.458039,0.230702,-0.737691
9.966623,-1.943646,0.138542,0.382073
9.996634,-2.114800,-0.483714,0.222550
10.036619,-2.590358,-0.213829,-0.789665
10.066665,-2.667903,0.965199,-0.646724
10.106678,-1.727409,-0.168239,0.500012
10.136690,-2.057732,-0.428621,-0.162395
10.166702,-2.526137,0.299714,-0.240930
10.196714,-2.543846,0.561993,-0.029794
10.236711,-2.306384,-0.344664,-0.080310
10.266736,-2.368653,-0.058074,-0.082528
10.296730,-2.322296,0.458955,-0.056963
10.326758,-2.179933,0.231714,-0.004636
10.366781,-2.109251,0.092681,-0.026266
10.396776,-2.009057,0.284035,-0.097053
10.426802,-1.692903,0.146187,-0.119439
10.466813,-1.540753,0.145238,0.063633
10.496804,-1.604744,0.348317,-0.059236
10.526834,-1.683395,0.508396,-0.092525
10.566856,-1.256067,0.220728,-0.044174
10.606873,-1.082754,0.107416,0.171939
10.626879,-0.856432,-0.148993,0.632186
10.666868,-1.043499,-0.132945,-0.071734
10.696907,-1.116416,0.066460,0.047783
10.726917,-1.028894,0.019027,0.323503
10.756930,-1.179966,-0.053817,0.155020
10.796943,-1.036470,0.195582,-0.003972
10.826956,-0.859287,0.382899,-0.421426
10.856967,-0.627512,0.207137,0.209406
10.896956,-0.941112,0.071355,-0.151849
10.926983,-0.791224,-0.141008,0.191081
10.966997,-0.727279,0.168833,-0.397580
10.996996,-0.456107,0.156880,-0.011456
11.027027,-0.388337,-0.082157,0.163926
11.067026,-0.482442,0.323798,-0.271070
11.087056,-0.307311,0.075881,0.104199
11.127076,-0.413398,-0.054014,-0.085492
11.167088,-0.616237,0.215421,-0.055224
11.197098,-0.272855,-0.103674,-0.000108
11.227110,-0.100388,-0.339716,0.222242
11.267126,-0.216125,-0.045487,0.048889
11.297117,-0.007564,-0.085988,-0.170686
11.327150,0.102963,-0.028995,0.117626
11.357161,-0.023796,-0.012219,-0.259734
11.387173,0.371478,-0.099414,0.063465
11.427186,0.512588,-0.346113,-0.365246
11.457197,1.087363,-0.971262,-0.520763
11.487209,1.101088,-0.991023,-0.407324
11.527204,0.478547,0.496943,0.863690
11.567238,0.504474,-0.493168,-0.873109
11.597254,0.426810,0.353881,0.360103
11.627265,0.537669,0.206192,0.359628
11.667278,0.676398,0.175673,-0.192701
11.697290,0.972464,-0.287808,-0.053107
11.727299,1.016783,-0.046508,0.225775
11.767316,1.260552,-0.049453,0.286620
11.797327,0.889834,0.362562,0.284235
11.827314,0.874887,0.360695,0.190600
11.867328,1.166272,0.004266,-0.054925
11.897353,1.349483,0.085124,0.087158
11.937368,1.837201,0.258419,-0.149408
11.957391,1.219213,-0.510022,-0.730087
11.997384,1.419302,0.066565,0.422944
12.027413,1.796851,0.523962,0.192566
12.067433,1.469751,-0.559633,-0.897673
12.097444,1.159962,-0.206176,-0.317239
12.127467,1.806258,-0.014175,0.526119
12.167484,1.736699,-0.478749,-0.232278
12.197495,0.989440,0.196000,0.045187
12.227507,1.049924,-0.165188,-0.169855
12.257519,1.213339,0.019838,0.415460
12.297532,0.865437,0.438284,0.062284
12.327544,0.701700,0.213841,-0.383385
12.357556,1.227202,0.032001,0.106239
12.397548,1.025761,0.104255,-0.154267
12.427583,1.091790,0.031769,0.149678
12.467600,1.570992,0.521423,0.147592
12.497610,0.831164,0.448878,-0.015191
12.527616,0.642792,0.398352,0.023002
12.567612,0.699712,0.434603,-0.243185
12.587644,0.724818,0.328241,-0.182379
12.637664,0.560162,0.122737,-0.041743
12.667676,0.714613,0.072651,-0.065884
12.697687,0.717624,0.022130,-0.038102
12.727699,0.440925,-0.073495,-0.078476
12.767715,0.166623,-0.146071,0.051729
12.797727,0.093927,-0.144459,-0.007879
12.827738,0.069591,-0.010695,-0.046908
12.857750,-0.184713,-0.059466,-0.004505
12.887761,0.058204,-0.103214,0.145978
12.927773,-0.005470,-0.179987,0.054092
12.957783,-0.111438,-0.126582,0.014545
12.997776,-0.192404,0.080916,0.089538
13.017804,-0.395802,0.070577,-0.068280
13.067808,-0.738882,-0.040795,-0.359995
13.107832,-0.412970,-0.030493,-0.231812
13.127853,-0.055424,0.013404,0.012945
13.167866,0.215983,-0.171899,0.011962
13.197865,0.195422,-0.083100,0.128431
13.237895,0.239069,-0.150990,-0.166283
13.267907,0.283427,-0.058972,0.040714
13.297918,0.424289,-0.037122,-0.020397
13.327930,0.184239,-0.084757,-0.120458
13.367947,0.221325,-0.026330,-0.022561
13.397957,0.355878,0.079662,-0.007683
13.427969,0.308566,0.185630,0.021870
13.457980,0.472479,0.305110,0.071062
13.497994,0.294596,0.252742,0.022031
13.528007,0.294806,0.143288,-0.074639
13.568018,0.540681,-0.271755,-0.123500
13.588030,0.491959,-0.176361,0.041977
13.628015,0.258095,-0.306800,-0.223377
13.668062,0.485014,-0.193880,-0.000893
13.698072,0.311842,-0.072694,-0.030757
13.738087,0.188492,-0.063336,-0.125374
13.758096,0.113758,0.032096,-0.113062
13.798110,0.172539,-0.001270,0.566992
13.828120,-0.142380,-0.086698,0.118400
13.868136,-0.439671,-0.024211,-0.019038
13.898129,-0.692524,0.116500,0.046012
13.928157,0.092419,0.453398,-0.196754
13.968165,0.087933,0.216493,-0.827507
13.998167,0.613616,-0.461949,-0.146074
14.028200,0.947728,-0.760786,-0.022533
14.058212,1.166936,-0.878680,-0.126548
14.088224,0.967751,-0.746576,-0.110513
14.128237,0.969945,0.090093,0.203786
14.168234,0.833252,0.644805,0.146886
14.198236,0.748552,0.631819,-0.081029
14.228266,0.837911,0.454163,-0.152270
14.268292,0.382374,0.092345,-0.205218
14.308307,0.004773,-0.180668,-0.110742
14.338317,0.415957,-0.366883,0.136203
14.358328,0.213339,-0.385111,0.006953
14.398341,0.268930,-0.044593,0.001616
14.428335,0.487982,-0.221293,-0.376791
14.458364,0.422873,-0.861463,-1.015071
14.498381,0.772922,-0.044137,0.274453
14.518362,0.805175,-0.283911,-0.010692
14.558404,1.106527,-0.478685,0.274251
14.598403,0.980668,-0.141879,0.245238
14.628416,1.152028,-0.196480,0.029613
14.658442,1.427923,-0.336305,0.197500
14.688454,1.665660,0.059385,0.340150
14.728469,2.258986,0.335589,0.243857
14.768485,2.002226,0.480866,0.073967
14.798496,2.533119,0.261794,0.060964
14.828487,2.341579,0.118202,0.117638
14.858515,2.339462,0.141741,0.111691
14.898530,1.424893,-0.116511,-0.167455
14.928526,1.898759,0.051496,-0.197826
14.968557,1.703911,-0.442755,-0.154019
14.998573,1.530229,-0.511221,-0.194835
15.028584,1.311714,-0.259046,-0.085146
15.058596,1.003680,-0.238059,-0.303123
15.098612,1.165801,-0.198352,-0.268170
15.128624,1.158197,0.190105,0.065480
15.158635,0.997305,-0.235322,-0.203116
15.198637,0.856906,0.354308,0.184081
15.228636,0.951843,0.541177,0.410969
15.258673,0.802763,0.300000,0.090494
15.298666,0.835217,-0.728865,0.159775
15.328695,0.989469,0.105027,0.565656
15.358694,0.622641,0.390120,0.423744
15.398728,0.697812,0.461143,0.333689
15.428740,0.729329,0.321511,0.197150
15.458751,0.713879,0.031130,0.214096
15.498767,0.696135,0.133582,0.060707
15.538781,0.599021,-0.518949,-0.260933
15.568793,0.775702,-0.348029,-0.224600
15.588802,0.676864,-0.387037,-0.214802
15.628816,0.371406,-0.121099,-0.126229
15.658827,0.346282,0.688692,0.265173
15.698829,0.438022,-0.081036,-0.003115
15.728845,0.387643,-0.126832,0.048088
15.768858,0.155526,0.114253,0.039514
15.798883,0.307024,0.043534,-0.103055
15.828895,0.399127,-0.007351,-0.663259
15.858906,0.202286,-0.124205,-0.613540
15.898920,0.233593,-0.196809,-0.241578
15.928930,0.108238,-0.061747,0.027697
15.958914,-0.005858,-0.051348,0.364868
15.998960,-0.752295,0.122073,-0.131550
16.028937,-1.010842,0.034776,-0.081356
16.068968,-1.486127,0.643236,-0.488593
16.098997,-1.937554,0.749139,-0.227681
16.129011,-1.636790,-0.000928,0.536178
16.169024,-2.048999,0.492464,-0.284665
16.199035,-1.892902,-0.137171,0.366400
16.229048,-1.909732,-0.009875,0.120952
16.259059,-1.485315,-0.276393,0.037824
16.299055,-1.605128,-0.561435,0.376969
16.329065,-1.458426,-0.232382,0.098222
16.359094,-1.123659,0.220581,-0.205666
16.399115,-1.210536,0.210201,0.174754
16.429106,-0.965759,0.286169,0.022244
16.459138,-0.552334,0.297688,-0.187623
16.499152,-0.327012,0.249986,0.221183
16.539169,-0.277959,0.092827,-0.163441
16.569181,0.400538,0.012073,0.104907
16.599191,0.099931,-0.051254,0.107640
16.629203,-0.325191,-0.008644,-0.096249
16.659215,-0.465328,0.059967,-0.022829
16.709231,-0.538810,0.027473,0.200871
16.739218,-0.717036,0.031318,0.172021
16.769247,-0.688627,0.040682,0.196687
16.799263,-0.724009,0.020179,0.130333
16.829275,-0.682473,0.030766,0.219906
16.869287,-0.693355,-0.001746,0.251196
16.889303,-0.741938,-0.021882,0.227371
16.929298,-0.817999,0.107661,-0.044691
16.969309,-0.644758,0.363168,-0.103571
16.999347,-0.285928,0.436975,-0.288954
17.029359,0.093727,0.315925,0.011268
17.059371,0.424355,0.111684,-0.059120
17.099384,0.831033,-0.083033,0.113221
17.139400,1.417685,-0.181481,-0.175045
17.169410,1.228090,-0.703977,-0.522037
17.199423,1.281633,-0.064941,-0.096481
17.229434,1.007833,-0.408913,-0.357322
17.269437,1.221055,-0.457810,-0.513240
17.299452,1.155637,-0.025386,0.355003
17.329465,0.552780,-0.146567,-0.290259
17.359463,1.678244,-0.252568,0.524753
17.389493,0.602683,-0.457273,-0.319341
17.429494,1.937035,-0.271908,0.474715
17.469524,1.301444,-0.215611,0.073034
17.499532,1.153728,-0.234706,-0.123164
17.529534,0.860478,-0.215735,-0.130599
17.559533,1.255271,-0.014311,0.074575
17.589547,0.859113,-0.013967,-0.146012
17.639592,0.723757,-0.018399,-0.106905
17.659602,0.943693,-0.197121,-0.065288
17.689613,0.716676,-0.339511,-0.171339
17.729627,0.891991,-0.539832,-0.125920
17.769616,0.786119,-0.481384,-0.074981
17.799655,0.633103,-0.384130,0.004270
17.829644,0.273197,-0.140838,0.021110
17.859677,0.734979,0.405026,0.247619
17.899693,0.772483,0.115089,0.180623
17.929684,1.023992,-0.161276,0.272579
17.959708,0.909917,-0.283877,0.234023
17.989713,1.220806,-1.183612,0.172022
18.029713,0.993914,-0.476164,0.069985
18.069759,0.967275,0.519392,0.161739
18.099770,0.676709,0.205189,-0.027321
18.129783,0.940868,-0.561000,-0.120938
18.159794,0.926038,-0.345961,-0.172278
18.199811,1.002920,1.303011,0.539966
18.219817,0.706408,1.384615,0.123197
18.269836,0.916551,-0.359990,-0.377793
18.299847,1.253324,0.131619,0.227217
18.329858,0.737943,0.428960,-0.139028
18.369863,0.858086,0.310432,-0.018783
18.399869,1.136738,-0.191349,-0.033053
18.429890,1.322498,-0.498864,0.052934
18.449905,1.300322,-0.325453,0.001878
18.499905,1.071253,0.116767,0.163987
18.529935,1.481153,-0.495687,-0.179717
18.569947,1.131059,-0.459807,0.160840
18.599934,1.504847,-1.787966,0.172876
18.629964,0.626544,-0.928098,-0.061094
18.659965,0.762309,0.117120,0.540092
18.689975,0.693498,0.092630,0.017409
18.719990,0.321564,0.349106,-0.137799
18.760027,0.159055,0.112616,0.007585
18.790038,0.356696,0.204233,0.290258
18.820049,0.005916,0.022101,-0.263318
18.870057,0.045085,0.157691,0.023173
18.900081,0.082047,-0.043778,-0.112375
18.930092,0.011092,0.167172,0.020119
18.960103,-0.025524,0.315642,0.134483
18.990115,-0.043966,0.253851,-0.017690
19.030115,-0.130998,0.301282,0.062844
19.060114,-0.042745,0.235634,0.273358
19.100159,0.034086,0.122872,0.066118
19.130171,0.117377,-0.101450,-0.024071
19.170185,0.212700,0.048969,0.073467
19.200196,0.249262,0.011689,-0.060110
19.230207,0.282752,-0.002790,-0.008230
19.260214,0.307555,0.081294,-0.060882
19.300236,0.297770,0.473941,0.277097
19.320242,0.224959,0.272999,0.071243
19.360258,0.572378,-0.070101,-0.049548
19.390269,0.632483,-0.193066,-0.079401
19.420263,0.799983,0.031588,0.211014
19.470296,0.587860,0.075451,0.062696
19.500306,0.659884,-0.018243,0.004685
19.530324,0.774598,-0.258041,-0.038962
19.560336,0.593647,-0.244548,-0.214391
19.590347,0.397890,-0.246003,-0.393305
19.620360,0.561149,0.136725,0.163762
19.650371,0.462961,0.355856,-0.044990
19.700393,0.719366,-0.141655,-0.066651
19.730404,0.040888,0.915397,0.054193
19.770418,0.148662,0.349967,0.034293
19.800404,0.137783,-0.525262,-0.556160
19.830442,0.191066,0.234405,0.572435
19.860452,-0.421134,0.731543,0.576659
19.890463,-0.155416,0.027569,-0.181520
19.920460,0.390631,-0.286437,-0.401505
19.950464,-0.312960,0.725445,1.303004
19.990503,-0.145652,0.372507,0.428904
20.020516,-0.018177,-0.098934,0.334197
20.050527,-0.417726,0.326025,0.241625
20.100546,-0.495543,-0.349450,-0.393068
20.130525,-0.642222,-0.054187,0.351313
20.160569,-1.130129,0.173081,0.115672
20.190581,-0.999629,0.349320,-0.004277
20.230594,-0.788647,0.317735,0.249548
20.260608,-0.904869,-0.023528,-0.141864
20.300626,-1.142721,0.043168,0.028180
20.340639,-0.185537,-0.147303,0.092770
20.370651,-0.322142,-0.294482,-0.020708
20.390661,-0.628929,-0.279905,0.047264
20.440648,-0.828685,-0.016580,-0.011906
20.460685,-1.001316,-0.149433,-0.238950
20.490696,-1.427817,0.112411,-0.058074
20.520707,-0.889126,0.243476,0.120444
20.550699,-1.233463,-0.255838,-0.470892
20.590737,-1.356464,0.509012,0.041861
20.620748,-1.359511,0.642855,0.502676
20.650761,-1.510149,0.019097,-0.190699
20.700765,-1.952370,0.460029,0.131717
20.730765,-2.158202,0.344133,0.328198
20.760792,-2.187971,0.124461,0.176283
20.790814,-2.913172,0.298586,-0.218006
20.820826,-2.187327,0.144931,1.016782
20.860842,-2.311248,-0.286533,0.166414
20.900859,-1.867956,-0.136147,0.519584
20.930870,-1.569152,-0.148328,0.502691
20.970875,-1.569696,-0.207506,0.466503
21.000896,-2.254083,-0.355925,0.403409
21.030908,-1.728316,0.153121,0.616551
21.060919,-2.024634,-0.355305,0.008087
21.100935,-2.123774,-0.460633,-0.039704
21.120943,-2.348666,-0.363439,0.305323
21.150954,-2.226953,-0.139766,0.504210
21.200974,-1.808469,-0.222841,-0.365671
21.230985,-1.834103,-0.643532,-0.764826
21.250994,-1.979045,-0.565479,-0.540228
21.290982,-1.513633,0.107642,0.019369
21.321012,-1.518113,0.215977,0.118140
21.371040,-1.077585,0.027438,0.102406
21.401052,-0.945193,0.139972,0.320519
21.431063,-0.845874,0.067332,0.289516
21.461074,-0.503816,-0.030420,0.019056
21.511094,-0.265636,0.066341,0.184893
21.521078,-0.165266,0.037111,0.246149
21.571117,-0.309382,-0.206496,0.160655
21.601130,-0.538740,-0.258265,0.055213
21.631140,-0.655705,-0.020355,0.010558
21.661153,-0.694605,-0.081112,-0.217124
21.691165,-0.635384,0.253632,-0.262975
21.721176,-0.520442,0.320769,-0.294566
21.751188,-0.399998,0.102989,-0.382465
21.781199,-0.199753,-0.028302,-0.096466
21.841222,-0.248891,0.076128,0.106398
21.871233,-0.277481,0.029946,-0.094416
21.901234,-0.413711,0.055107,-0.180248
21.931233,-0.248835,-0.014916,-0.080324
21.961262,-0.218305,-0.060997,0.158134
21.991261,-0.178232,0.061793,0.160451
22.021290,-0.348387,-0.019639,-0.010340
22.061303,-0.336662,-0.106190,0.005089
22.091320,-0.330239,0.024874,-0.128601
22.121324,-0.358272,0.067142,0.101851
22.171343,-0.349181,0.067583,0.146534
22.201353,-0.594521,0.032794,0.041388
22.231365,-0.402914,-0.010562,0.220531
22.261376,-0.406658,-0.057376,0.283468
22.291389,-0.522367,-0.012387,0.161869
22.331374,-0.541939,0.210748,-0.146680
22.351412,-0.487222,0.044413,-0.059299
22.401431,-0.314203,-0.073782,-0.015555
22.441426,-0.314995,-0.095424,-0.137188
22.471453,-0.419704,-0.095410,-0.385092
22.501457,-0.355870,-0.034899,-0.204177
22.531461,-0.168041,-0.104164,0.137189
22.561489,-0.121017,-0.054601,0.402958
22.591506,-0.219283,-0.061767,0.351665
22.621517,-0.332840,-0.045615,0.233790
22.651524,-0.422364,0.091594,0.228778
22.691545,-0.571710,0.092084,-0.421150
22.721549,-0.671452,0.205219,-0.459585
22.751568,-0.610785,0.209484,-0.369043
22.801587,-0.156486,0.103698,0.003862
22.831598,0.033016,-0.134982,0.123029
22.861611,0.209303,-0.099613,0.024988
22.891623,0.475249,0.027692,-0.130801
22.921635,0.279462,0.030657,-0.106515
22.961623,0.406530,-0.137079,-0.329601
22.991655,0.754203,-0.219471,-0.128665
23.041680,0.792564,-0.080940,0.032394
23.071693,0.835859,-0.021208,0.045246
23.101705,0.976341,-0.076930,0.036936
23.131716,0.947989,-0.055186,0.000084
23.161728,0.797085,0.067108,-0.025480
23.191738,0.678850,0.174822,0.078464
23.221721,0.747554,0.408303,-0.038371
23.251750,0.506962,0.321379,-0.078543
23.291778,0.477008,0.253548,-0.044738
23.321791,0.377968,0.075168,0.014591
23.351803,0.537159,0.250031,-0.004322
23.381814,0.630646,0.277192,-0.007965
23.431805,0.731021,0.267043,-0.152664
23.461833,0.628744,0.201539,-0.012556
23.491832,0.901422,0.254677,0.015330
23.521868,1.092587,0.258023,-0.075842
23.561885,1.317056,0.243231,-0.298113
23.591896,1.076966,0.191887,-0.292961
23.621908,0.686259,-0.011082,-0.180191
23.651917,0.620945,-0.061755,-0.021687
23.701938,0.452606,-0.000072,0.006907
23.731950,0.168654,-0.068095,0.043602
23.761961,0.326013,-0.077911,0.037223
23.791974,0.485664,-0.069290,0.010983
23.821984,0.629704,-0.234038,0.092116
23.851997,0.479501,-0.293689,0.039793
23.882008,0.448370,-0.200322,-0.152063
23.932031,-0.176937,-0.512129,-0.038388
23.952037,-0.107041,-0.498224,-0.018907
24.002025,0.571720,-0.251848,0.052372
24.012060,0.656439,-0.194083,0.067364
24.062053,-0.126410,-0.335414,0.069156
24.102095,-0.137351,-0.330566,0.097945
24.122081,-0.359846,-0.445617,0.161492
24.162119,-0.348711,-0.642137,0.256772
24.192130,-0.896629,-0.813422,0.055167
24.232146,-1.752828,-0.835062,-0.268454
24.252153,-1.886277,-0.881076,-0.300300
24.302164,-1.449664,-0.915170,0.121765
24.312174,-1.341622,-0.714010,0.110722
24.362196,0.214920,-0.189832,-0.286135
24.392207,0.892260,-0.070662,-0.052376
24.422220,0.755510,0.097747,-0.019645
24.452230,0.533762,0.123916,-0.057703
24.482243,0.053257,0.102072,-0.034208
24.532264,0.324344,0.170940,-0.060268
24.572278,0.691993,0.671234,-0.167568
24.602289,1.229212,1.067923,-0.209590
24.632274,1.231570,0.953973,-0.005386
24.662295,0.821005,0.520733,0.025473
24.702329,0.078772,0.104977,0.064776
24.732341,1.139338,0.319407,0.112514
24.762352,2.052696,0.632267,0.091713
24.792364,1.439060,0.464294,0.075131
24.832375,1.385597,0.333485,0.034366
24.852388,1.339917,0.247695,0.051869
24.902385,1.255034,0.192905,0.051820
24.932414,1.475104,0.081776,0.065974
24.962413,0.980274,-0.003543,0.051058
25.002425,1.499436,0.252291,-0.061649
25.032456,1.780174,0.465762,-0.127562
25.062444,1.541424,0.550691,-0.178379
25.102487,1.010204,0.072628,-0.183583
25.132498,0.496144,-0.383729,-0.208571
25.162509,0.852107,-0.248313,-0.236492
25.202524,1.617490,0.128713,-0.245645
25.232535,1.552883,0.016372,-0.241416
25.262548,1.897289,0.058841,-0.261499
25.292557,2.652801,0.175222,-0.386080
25.322563,3.076145,0.363563,-0.366153
25.352580,1.422678,0.009594,-0.186394
25.392598,0.920709,-0.225741,-0.297675
25.422609,2.078158,-0.309888,-0.504190
25.452620,0.617065,-0.566408,-0.148001
25.502640,1.773356,-0.588461,-0.157696
25.532652,1.378243,-0.564234,0.020950
25.562665,2.113385,-0.529960,0.032011
25.592676,1.599271,-0.263424,0.156509
25.622688,2.147854,-0.090303,0.093352
25.652699,2.253239,-0.115212,0.081317
25.682711,1.339241,0.094365,0.250024
25.742734,2.043237,0.434887,0.024246
25.772747,1.277173,0.402455,0.022754
25.802757,1.262617,0.347651,-0.096319
25.832770,1.355438,0.148562,-0.088194
25.862781,0.714061,-0.077477,-0.081422
25.922805,0.020058,-0.642379,-0.250065
25.922805,0.020058,-0.642379,-0.250065
25.952814,0.018346,-0.786675,-0.157025
25.992833,0.021308,-0.578174,0.020175
26.022845,0.059282,-0.401420,-0.092428
26.052856,0.047767,-0.355667,-0.018218
26.102855,-0.004157,-0.280192,0.052241
26.132865,0.014425,-0.213035,-0.011366
26.162898,0.016944,-0.017120,0.009274
26.192911,0.022037,0.039295,0.017767
26.222922,0.001751,0.022569,0.131223
26.262938,0.016225,0.179335,0.135201
26.292945,0.236523,0.104022,0.321232
26.332947,0.240603,0.167990,0.323482
26.372966,-0.142727,0.145334,0.503402
26.402987,0.581316,0.179952,0.559121
26.432995,0.206194,0.184993,0.458814
26.462994,-0.124867,0.155018,0.218599
26.493023,0.372342,0.118117,0.135548
26.523040,1.339168,0.188042,-0.166177
26.553051,2.654052,0.284072,-1.031702
26.583063,-0.008908,0.519485,-1.081497
26.633075,-0.040745,-0.015434,-0.264067
26.653091,0.042276,0.033301,-0.287528
26.683103,0.588421,0.005015,-0.075790
26.733108,0.574477,0.188964,0.097746
26.763125,0.622251,0.402660,0.155988
26.793132,1.263921,0.244852,0.003873
26.823131,1.567495,0.107630,-0.135495
26.853168,1.254319,-0.042158,-0.131185
26.893179,1.627876,-0.467494,-0.092886
26.923197,2.032636,-0.659786,0.059293
26.953203,1.829223,-0.665241,0.002593
27.003226,1.921641,-0.605631,0.395149
27.033240,1.957428,-0.738350,0.154526
27.063251,1.416385,-0.520790,0.122825
27.093262,1.067667,-0.342348,0.201222
27.133261,1.157317,0.214265,0.445575
27.163273,1.144462,0.437032,0.306114
27.183280,0.889465,0.390296,0.212433
27.233302,1.312934,0.217274,-0.203951
27.253307,1.400082,0.332997,0.071595
27.303306,1.087757,0.316201,0.167693
27.333336,1.467515,0.395180,0.213197
27.343343,1.425373,0.449431,0.066333
27.393334,1.218475,0.246757,-0.422585
27.433376,0.527410,-0.063675,-0.421686
27.453386,-0.085974,-0.028715,-0.103785
27.493399,-0.439749,-0.165178,0.421811
27.523408,-1.075259,-0.494803,0.297997
27.573432,-1.009842,-0.507915,-0.158386
27.583433,-0.477080,-0.244205,-0.151826
27.633455,-0.127417,-0.131363,-0.383290
27.663445,-0.069022,-0.116434,-0.079864
27.693479,0.079096,-0.135906,-0.014118
27.723491,0.756601,-0.186349,-0.061053
27.753502,0.816217,-0.222468,-0.264769
27.783514,0.871592,-0.223730,-0.376389
27.833536,0.917115,-0.159118,-0.475105
27.853543,0.870303,-0.414830,0.492099
27.903561,0.214159,-0.135103,-0.024581
27.933570,0.039136,0.015610,-0.388886
27.963557,0.512992,-0.136286,-0.348604
27.993584,0.182062,0.030186,0.463368
28.033614,0.243515,-0.033156,0.796189
28.053612,0.295773,-0.067239,0.383004
28.093638,0.337083,0.004895,0.279105
28.143644,0.099668,0.117149,0.397883
28.173638,0.143288,0.079620,-0.001551
28.183673,0.140098,0.089231,-0.003504
28.233691,0.083960,0.174290,0.564818
28.263702,0.054687,0.173581,0.318052
28.293715,0.220551,0.222286,-0.104104
28.323726,0.148609,0.275626,0.156278
28.363732,0.030024,0.288249,0.414790
28.383749,-0.168857,0.030728,0.386401
28.423764,0.090257,-0.162541,0.343782
28.473784,0.443482,0.075660,-0.353274
28.503793,0.855464,0.239879,-0.862337
28.533808,0.843659,0.179928,-0.636946
28.563820,0.559147,-0.129949,0.310901
28.603837,0.485902,-0.049066,0.084734
28.623823,0.677536,0.066033,-0.276612
28.653844,1.176582,0.189211,-0.367336
28.683861,0.947349,-0.065621,0.767696
28.723884,1.040278,0.321439,-0.268276
28.773902,0.942749,0.180783,-0.662337
28.803915,1.014295,0.188853,-0.395181
28.833925,1.615071,-0.047617,-0.078757
28.863938,1.414742,-0.149309,0.096724
28.893949,0.296590,-0.213011,-0.065272
28.923961,1.056845,-0.235508,0.397795
28.963955,0.489038,-0.139101,-0.595403
28.993985,0.632859,-0.133611,-0.631291
29.023988,0.433485,0.063334,0.395150
29.074013,0.649767,0.232999,1.310972
29.104010,0.661475,0.315430,0.083171
29.134026,0.872690,0.314729,-0.799254
29.164054,0.894505,0.300656,-0.849470
29.194067,0.456735,0.208766,0.375533
29.224078,0.827080,0.085373,1.256341
29.264095,1.110172,0.237173,-0.529233
29.284081,0.784822,0.096081,-0.682166
29.324118,0.449474,-0.137578,-0.069017
29.374108,1.070979,0.157915,-0.020292
29.404132,0.836882,0.166929,-0.696747
29.434136,0.462357,-0.036059,-0.506327
29.464173,0.364759,-0.144686,0.307212
29.494185,0.532770,0.155772,0.734086
29.524196,0.437366,0.139565,-0.492474
29.554207,0.410207,-0.027239,-0.399880
29.584219,0.463295,-0.009929,-0.399498
29.634241,0.788965,0.227649,0.004065
29.674248,0.459142,-0.010252,-0.308053
29.704267,0.476917,-0.110077,-0.258833
29.734278,0.526724,-0.077937,-0.252863
29.764290,0.403678,-0.067669,0.730868
29.794301,0.669364,-0.235056,-0.040787
29.824314,0.567242,-0.266729,-0.023413
29.854326,0.517857,-0.258055,0.022418
29.884336,0.357360,-0.278583,0.131386
29.924354,0.117923,-0.161468,0.138590
29.974359,0.074012,-0.031201,0.042047
30.004357,0.116677,0.007747,0.018358
30.034386,0.128355,0.012067,0.018451
30.044401,0.122931,0.016162,0.028092
30.094419,0.042322,0.090882,-0.002524
30.124431,0.151982,0.064959,-0.016700
30.154443,0.131869,0.066041,-0.024148
30.194455,0.098549,0.028967,0.019792
30.234476,0.190315,0.073814,-0.026063
30.264489,0.180716,0.052319,-0.017964
30.294499,0.176528,0.058807,-0.025293
30.324511,0.309513,0.022223,-0.032195
30.364525,0.638837,-0.009049,-0.117465
30.394537,0.517530,0.081069,-0.121257
30.424549,0.322964,0.095592,-0.013808
30.464566,0.754013,0.000649,-0.158626
30.494577,0.613395,0.037028,0.571404
30.534593,0.755337,-0.051838,-0.071329
30.564576,0.524061,0.019009,0.179620
30.604608,0.830351,-0.124662,0.186892
30.624605,0.639703,-0.002355,0.503710
30.664635,0.549468,-0.020773,-0.003998
30.694628,0.557424,-0.001628,0.144184
30.724651,0.661629,0.071093,0.021227
30.754678,0.663113,0.156847,0.063225
30.794695,0.399224,0.016875,-0.073664
30.834687,0.635160,0.061107,-0.388414
30.864723,0.503109,-0.098531,-0.024631
30.894736,0.584038,-0.030058,-0.156201
30.924747,0.445729,-0.076337,-0.029605
30.964761,0.314370,-0.139511,-0.043713
30.994772,0.288470,-0.093125,-0.026908
31.024773,0.050716,-0.032266,0.034556
31.064800,0.075665,0.081540,0.062212
31.094813,0.155589,0.174256,0.020418
31.134810,0.140287,0.236700,0.047077
31.154836,0.194530,0.234890,0.042853
31.204847,0.036391,0.176632,0.037338
31.234857,0.013430,0.059430,0.023447
31.264873,0.027749,0.005654,-0.012624
31.304896,0.022628,-0.021914,-0.024838
31.334907,0.015206,-0.028345,-0.024966
31.364919,0.036665,-0.021528,-0.046083
31.394931,0.105684,-0.023411,-0.040721
31.434937,0.024242,0.007323,0.017179
31.464936,0.081754,0.053789,-0.005291
31.494965,0.048588,0.062939,0.013982
31.524964,0.033671,0.074579,0.015243
31.554994,0.019851,0.068085,0.017234
31.595008,0.049827,0.059985,-0.002023
31.625019,0.042564,0.075178,-0.021956
31.655032,0.024525,0.029124,-0.014321
31.695034,0.019340,-0.013512,-0.017242
31.735065,0.019288,-0.010378,-0.012931
31.765077,0.019181,0.005517,-0.006256
31.795089,0.023400,0.026891,-0.007983
31.835102,0.024345,0.047055,-0.001229
31.865097,0.031816,0.061045,-0.007342
31.895125,0.033882,0.062042,-0.002004
31.935143,0.024295,0.049123,0.003063
31.955132,0.049863,0.036500,-0.000330
31.985132,0.028579,0.053472,-0.001105
32.025175,0.044576,0.066468,-0.009354
32.075196,0.075378,0.071945,-0.009216
32.105209,0.105096,0.085946,-0.008923
32.135209,0.078493,0.069716,-0.001810
32.155218,0.078523,0.062270,-0.003011
32.195232,0.060463,0.051491,-0.001104
32.225244,0.039322,0.042990,-0.009794
32.255256,0.019110,0.020394,-0.002791
32.295267,0.018234,-0.009301,-0.013975
32.335290,0.017223,-0.016720,-0.017304
32.365301,0.020389,0.005730,-0.020076
32.395313,0.019296,0.008891,-0.017892
32.435327,0.025628,0.017418,-0.015600
32.465339,0.020282,-0.000842,-0.008499
32.495351,0.018198,-0.004002,-0.011751
32.525360,0.022403,0.014141,-0.011410
32.575368,0.019164,0.003353,-0.004169
32.595391,0.021298,0.013006,-0.007179
32.635396,0.023369,0.048244,-0.009715
32.675397,0.034062,0.044110,-0.015096
32.705427,0.059712,0.020906,-0.024003
32.735445,0.026637,-0.024377,-0.001483
32.765457,0.021357,-0.051102,0.001207
32.795468,0.020373,-0.055275,-0.005252
32.825480,0.021441,-0.053122,-0.006274
32.855492,0.023616,-0.036993,-0.014481
32.895493,0.019290,-0.056378,-0.003147
32.935525,0.022349,-0.018033,0.000756
32.965537,0.022291,0.013981,-0.000779
32.995548,0.021208,0.026785,-0.001607
33.025561,0.022217,0.043831,-0.000227
33.065574,0.020056,0.049119,0.001995
33.095583,0.024352,0.062044,-0.005205
33.125594,0.017959,0.028822,0.003744
33.165615,0.017099,-0.025457,-0.003641
33.195627,0.018185,-0.021139,-0.006750
33.225639,0.019282,-0.008246,-0.012891
33.265633,0.020445,-0.012377,-0.021474
33.295669,0.018310,-0.026310,-0.017480
33.325662,0.016063,-0.013655,-0.008741
33.365670,0.023508,0.019556,-0.016626
33.395702,0.022362,0.021571,-0.009146
33.435721,0.020301,0.000256,-0.010606
33.465732,0.036004,-0.008564,0.013708
33.495744,1.112043,0.698484,-0.001742
33.525743,0.668360,0.905242,0.006881
33.565772,0.219413,0.240545,0.100413
33.595784,0.035449,-0.090225,-0.016515
33.635798,-0.070412,-0.410678,-0.085306
33.665810,0.140350,-0.381335,-0.125993
33.695793,0.747434,-0.370472,-0.159115
33.725834,0.857555,-0.425066,-0.110014
33.765850,-0.246712,-0.078474,0.034419
33.795863,0.035672,-0.028297,0.049500
33.825874,0.472733,0.258842,-0.043582
33.865883,0.221367,-0.186750,0.008503
33.895894,-0.084153,-0.742741,0.080816
33.935895,0.067581,-0.922694,0.040445
33.955922,0.031927,-1.042456,0.122201
33.995927,-0.092339,-1.160909,0.444216
34.025924,0.079181,-1.078782,0.284291
34.055949,0.260676,-0.824841,0.047796
34.095963,0.606048,-0.637445,0.105899
34.135997,0.704142,-0.311337,0.506580
34.166008,0.469724,-0.510855,0.510062
34.196020,0.587695,-0.289869,0.460050
34.226031,0.612505,0.084604,0.242616
34.256043,0.457103,-0.088315,0.204144
34.296057,0.361578,-0.410905,0.566019
34.326069,0.488441,-0.319843,0.507235
34.356079,0.264522,-0.011488,0.210657
34.396098,0.350342,0.416066,0.242058
34.426109,0.122671,0.211760,0.211429
34.466126,0.204901,0.160312,0.183988
34.496135,0.137831,-0.083230,0.047540
34.526124,0.082123,-0.123909,-0.102159
34.556142,0.113860,0.313174,-0.083406
34.596160,0.174792,-0.001186,-0.149764
34.636192,0.282283,-0.042603,-0.055758
34.666204,0.312493,0.124832,0.166442
34.696216,0.376745,0.082347,0.531556
34.726228,0.426557,0.337027,0.488468
34.766244,0.573796,0.036253,0.396939
34.796256,0.666690,-0.523094,0.678089
34.826268,0.804638,-1.166951,0.635506
34.856279,0.628086,-1.311826,0.782567
34.896293,0.498266,-0.424271,0.505315
34.926303,1.189579,-0.123631,1.087002
34.966294,0.922895,-0.322159,1.227649
34.986324,0.394470,-0.755315,0.645829
35.026346,0.316062,-1.085072,0.495012
35.066335,1.314403,-0.968440,0.217583
35.096364,3.593739,-0.490233,0.415183
35.136387,4.867651,0.657691,-0.422434
35.156381,-1.265914,-0.034093,-0.263712
35.196393,0.600673,0.164324,0.540776
35.236428,-0.350022,-0.501827,-0.354241
35.256435,1.039526,-0.580281,0.201044
35.296452,1.151271,0.032828,0.453911
35.326464,0.934349,0.305099,0.005666
35.366469,1.001018,0.473805,0.297056
35.396492,0.891446,0.618792,0.478267
35.426494,1.157730,0.745251,0.592577
35.456502,0.965959,0.884476,0.206771
35.486526,0.543104,0.713066,0.338167
35.526541,0.586237,0.379115,0.150194
35.566558,0.151343,-0.080570,-0.125736
35.596554,0.266236,-0.011623,0.148977
35.626574,0.321745,-0.199737,0.266796
35.666598,0.707891,-0.850285,-0.032975
35.696609,0.575322,-1.173910,0.315014
35.726621,1.078455,-1.290597,0.292174
35.756634,0.013871,-0.842281,0.279017
35.796647,0.005796,-0.919738,-0.247765
35.826659,-0.018178,-0.501314,-0.282595
